Folder: uncertainpy/SHARED_FOLDER/Experimental Data

File: tga_exp.csv
Temp,Total MLR,
39.8183,2.00E-06,
39.857,1.98E-06,
39.9667,1.19E-06,
40.1763,1.06E-06,
40.519,1.17E-06,
41.0107,8.56E-08,
41.6723,7.20E-06,
42.512,7.75E-06,
43.544,-1.36E-06,
44.77,1.79E-06,
46.1913,5.71E-06,
47.8017,3.14E-06,
49.5967,6.43E-06,
51.569,9.21E-06,
53.7077,3.97E-06,
55.9973,5.78E-06,
58.432,1.42E-05,
60.997,1.35E-05,
63.6817,1.42E-05,
66.4727,1.88E-05,
69.36,2.06E-05,
72.3283,2.47E-05,
75.373,2.80E-05,
78.479,2.99E-05,
81.6413,3.29E-05,
84.8453,3.31E-05,
88.0873,3.43E-05,
91.362,4.06E-05,
94.657,4.40E-05,
97.96966,4.27E-05,
101.294,4.42E-05,
104.626,4.03E-05,
107.961,3.52E-05,
111.294,3.43E-05,
114.621,2.85E-05,
117.936,2.67E-05,
121.24,2.72E-05,
124.529,1.93E-05,
127.8,1.30E-05,
131.052,1.31E-05,
134.28,1.24E-05,
137.483,9.75E-06,
140.662,7.18E-06,
143.815,4.42E-06,
146.937,5.67E-06,
150.03,1.10E-05,
153.095,5.98E-06,
156.126,8.66E-07,
159.126,2.02E-06,
162.099,5.88E-06,
165.035,1.03E-05,
167.941,1.02E-05,
170.815,1.30E-05,
173.662,1.17E-05,
176.476,4.65E-06,
179.261,7.85E-06,
182.018,1.29E-05,
184.749,1.31E-05,
187.451,1.55E-05,
190.131,1.48E-05,
192.784,1.52E-05,
195.416,1.71E-05,
198.023,1.50E-05,
200.609,1.63E-05,
203.177,2.01E-05,
205.727,2.07E-05,
208.261,2.27E-05,
210.777,2.03E-05,
213.277,1.90E-05,
215.767,2.46E-05,
218.247,2.54E-05,
220.713,2.35E-05,
223.171,3.44E-05,
225.62,3.76E-05,
228.062,3.44E-05,
230.496,3.96E-05,
232.927,4.42E-05,
235.355,5.22E-05,
237.778,5.54E-05,
240.197,5.73E-05,
242.616,6.23E-05,
245.033,6.95E-05,
247.451,8.31E-05,
249.868,0.000100558,
252.285,0.000104845,
254.704,0.000113955,
257.125,0.000133803,
259.546,0.00015463,
261.971,0.000173717,
264.399,0.00017638,
266.832,0.000192618,
269.264,0.000221791,
271.702,0.000256317,
274.143,0.000294402,
276.585,0.000309761,
279.033,0.000331134,
281.479,0.000368861,
283.93,0.000392679,
286.383,0.000432271,
288.841,0.000470079,
291.301,0.000498372,
293.763,0.000539625,
296.227,0.000571446,
298.694,0.000606896,
301.162,0.000639924,
303.631,0.000679923,
306.102,0.000723042,
308.576,0.000763203,
311.05,0.000812068,
313.528,0.000861913,
316.005,0.000906155,
318.484,0.000958881,
320.963,0.001023993,
323.443,0.001085006,
325.924,0.001163758,
328.406,0.001240993,
330.887,0.001307889,
333.368,0.001403669,
335.849,0.001496375,
338.329,0.001576722,
340.81,0.001661893,
343.288,0.001745708,
345.767,0.001831419,
348.247,0.001884488,
350.726,0.001907117,
353.206,0.001921543,
355.686,0.001890318,
358.168,0.001794283,
360.651,0.001653978,
363.137,0.001464619,
365.626,0.001215717,
368.118,0.000937883,
370.612,0.000673617,
373.109,0.00045066,
375.607,0.000292657,
378.103,0.00021124,
380.596,0.000178062,
383.086,0.000159005,
385.576,0.000148816,
388.059,0.000141873,
390.543,0.00013338,
393.021,0.000132677,
395.501,0.000134525,
397.979,0.000124911,
400.456,0.000127225,
402.932,0.000123638,
405.406,0.00011355,
407.881,0.00012145,
410.355,0.000121539,
412.83,0.000120971,
415.305,0.000119592,
417.78,0.00010404,
420.252,9.96E-05,
422.728,0.000108081,
425.202,0.000106123,
427.678,0.000102052,
430.154,9.85E-05,
432.63,9.54E-05,
435.108,9.52E-05,
437.583,8.86E-05,
440.062,8.65E-05,
442.543,8.85E-05,
445.04,8.84E-05,
447.542,8.47E-05,
450.036,8.34E-05,
452.517,8.38E-05,
454.993,7.81E-05,
457.467,7.53E-05,
459.944,7.73E-05,
462.421,7.55E-05,
464.899,7.28E-05,
467.38,7.01E-05,
469.858,6.24E-05,
472.337,6.39E-05,
474.817,7.21E-05,
477.297,6.49E-05,
479.779,5.79E-05,
482.26,6.55E-05,
484.741,6.50E-05,
487.223,6.11E-05,
489.707,5.46E-05,
492.192,5.08E-05,
494.678,5.59E-05,
497.166,5.79E-05,
499.654,5.32E-05,
502.143,4.87E-05,
504.633,5.32E-05,
507.124,4.86E-05,
509.615,4.61E-05,
512.108,4.75E-05,
514.602,4.48E-05,
517.097,4.79E-05,
519.591,4.54E-05,
522.089,4.28E-05,
524.585,4.62E-05,
527.083,4.68E-05,
529.583,4.34E-05,
532.085,4.72E-05,
534.589,4.36E-05,
537.091,4.32E-05,
539.597,4.09E-05,
542.103,3.24E-05,
544.609,3.95E-05,
547.115,3.86E-05,
549.624,3.63E-05,
552.133,4.49E-05,
554.642,4.53E-05,
557.154,3.63E-05,
559.662,3.31E-05,
562.174,3.46E-05,
564.684,3.57E-05,
567.195,3.23E-05,
569.705,3.50E-05,
572.215,3.87E-05,
574.724,3.23E-05,
577.231,3.45E-05,
579.739,4.09E-05,
582.245,3.64E-05,
584.749,3.03E-05,
587.253,3.10E-05,
589.755,2.86E-05,
592.256,2.52E-05,
594.751,2.84E-05,
597.246,2.67E-05,
599.741,2.41E-05,
602.231,2.64E-05,
604.721,2.79E-05,
607.207,2.68E-05,
609.694,2.67E-05,
612.178,2.59E-05,
614.662,2.20E-05,
617.147,2.64E-05,
619.635,3.04E-05,
622.12,2.42E-05,
624.605,2.32E-05,
627.091,2.38E-05,
629.579,2.43E-05,
632.069,2.36E-05,
634.558,1.82E-05,
637.048,2.01E-05,
639.54,2.38E-05,
642.036,2.34E-05,
644.534,2.30E-05,
647.033,2.08E-05,
649.533,2.58E-05,
652.034,2.65E-05,
654.537,1.83E-05,
657.04,2.07E-05,
659.544,2.33E-05,
662.05,2.54E-05,
664.554,2.59E-05,
667.061,1.93E-05,
669.566,1.74E-05,
672.071,2.08E-05,
674.577,2.78E-05,
677.085,2.14E-05,
679.591,1.23E-05,
682.096,1.55E-05,
684.601,1.82E-05,
687.105,2.33E-05,
689.61,2.35E-05,
692.114,1.69E-05,
694.617,1.37E-05,
697.118,1.43E-05,
699.622,1.23E-05,
702.125,1.93E-05,
704.628,2.26E-05,
707.13,1.43E-05,
709.632,1.21E-05,
712.136,1.09E-05,
714.637,1.23E-05,
717.139,1.88E-05,
719.641,1.87E-05,