Folder: uncertainpy/SHARED_FOLDER/Scripts

File: test1_tga.csv
s,C,g/g,g/g,g/g,g/g,g/g,g/g,1/s,1/s,1/s,1/s,1/s,1/s,W/g,W/g
Time,Temp,Total Mass,LB Mass,MOISTURE Mass,LB_int Mass,LB_char1 Mass,LB_char2 Mass,Total MLR,LB MLR,MOISTURE MLR,LB_int MLR,LB_char1 MLR,LB_char2 MLR,MCC,DSC
 0.01, 20.0165, 1, 0.98, 0.0199999, 1.51002e-15, 1.65389e-37, 0.0000000E+000, 7.97923e-06, 1.59603e-13, 7.97923e-06,-1.51002e-13,-1.65389e-35, 0.0000000E+000, 0.0000000E+000, 3.30916
 15, 35.0045, 0.999847, 0.98, 0.0198473, 9.3882e-12, 7.55436e-30, 0.0000000E+000, 1.26586e-05, 1.69346e-12, 1.26586e-05,-1.6022e-12,-3.03986e-30, 0.0000000E+000, 0.0000000E+000, 1.0011
 30, 50.0045, 0.999611, 0.98, 0.0196111, 9.52016e-11, 1.92879e-27, 0.0000000E+000, 1.9147e-05, 1.44424e-11, 1.9147e-05,-1.36641e-11,-6.6625e-28, 0.0000000E+000, 0.0000000E+000, 1.00086
 45, 65.0045, 0.999262, 0.98, 0.0192623, 7.39495e-10, 2.71015e-25, 0.0000000E+000, 2.77212e-05, 1.01841e-10, 2.77212e-05,-9.63524e-11,-8.51598e-26, 0.0000000E+000, 0.0000000E+000, 1.00051
 60, 80.0045, 0.998768, 0.98, 0.0187682, 4.81314e-09, 2.493e-23, 0.0000000E+000, 3.85229e-05, 6.08329e-10, 3.85228e-05,-5.75547e-10,-7.18966e-24, 0.0000000E+000, 0.0000000E+000, 1.00002
 75, 95.0045, 0.998096, 0.98, 0.0180958, 2.6961e-08, 1.59495e-21, 0.0000000E+000, 5.14637e-05, 3.14125e-09, 5.14635e-05,-2.97197e-09,-4.23935e-22, 0.0000000E+000, 0.0000000E+000, 0.999342
 90, 110.004, 0.997216, 0.98, 0.0172155, 1.32351e-07, 7.41206e-20, 0.0000000E+000, 6.61282e-05, 1.4264e-08, 6.61275e-05,-1.34954e-08,-1.82192e-20, 0.0000000E+000, 0.0000000E+000, 0.99846
 105, 125.004, 0.996107, 0.979999, 0.0161072, 5.77916e-07, 2.54894e-18, 2.68648e-20, 8.16966e-05, 5.77919e-08, 8.16935e-05,-5.46775e-08,-5.75745e-19,-9.38229e-21, 0.0000000E+000, 0.997349
 120, 140.004, 0.994766, 0.979998, 0.0147662, 2.27327e-06, 6.82495e-17, 1.33818e-18, 9.69235e-05, 2.11528e-07, 9.69121e-05,-2.00129e-07,-1.44332e-17,-3.0965e-19, 0.0000000E+000, 0.996005
 135, 155.004, 0.993209, 0.979991, 0.0132094, 8.14347e-06, 1.4642e-15, 3.76662e-17, 0.000110216, 7.06942e-07, 0.000110177,-6.68846e-07,-2.88633e-16,-8.06923e-18, 0.0000000E+000, 0.994445
 150, 170.004, 0.991478, 0.979972, 0.0114794, 2.68181e-05, 2.55787e-14, 8.44076e-16, 0.000119841, 2.1773e-06, 0.000119724,-2.05997e-06,-4.70974e-15,-1.68987e-16, 0.0000000E+000, 0.992711
 165, 185.004, 0.98964, 0.979913, 0.00964436, 8.18567e-05, 3.70999e-13, 1.54831e-14, 0.000124283, 6.22938e-06, 0.000123947,-5.89368e-06,-6.39394e-14,-2.90361e-15, 0.0000000E+000, 0.990869
 180, 200.004, 0.98778, 0.979753, 0.00779302, 0.000233229, 4.54487e-12, 2.36848e-13, 0.000122691, 1.66716e-05, 0.000121793,-1.57732e-05,-7.34561e-13,-4.1688e-14, 0.0000000E+000, 0.989006
 195, 215.004, 0.985988, 0.97934, 0.00602347, 0.000624175, 4.7735e-11, 3.0707e-12, 0.000115371, 4.19875e-05, 0.000113109,-3.97249e-05,-7.24796e-12,-5.08179e-13, 0.0000000E+000, 0.987211
 210, 230.004, 0.984338, 0.978333, 0.00442807, 0.00157743, 4.35538e-10, 3.42226e-11, 0.00010421, 0.000100016, 9.882e-05,-9.46261e-05,-6.22243e-11,-5.33385e-12, 0.0000000E+000, 0.985558
 225, 245.004, 0.982862, 0.976003, 0.0030777, 0.00378166, 3.49199e-09, 3.31971e-10, 9.30097e-05, 0.000226246, 8.08166e-05,-0.000214052,-4.70048e-10,-4.87979e-11, 0.0000000E+000, 0.984079
 240, 260.004, 0.981518, 0.970877, 0.00201011, 0.00863089, 2.48466e-08, 2.83335e-09, 8.78097e-05, 0.000487342, 6.1541e-05,-0.000461069,-3.15431e-09,-3.93265e-10, 0.0000000E+000, 0.982733
 255, 275.004, 0.980155, 0.960131, 0.00122591, 0.0187978, 1.58188e-07, 2.14744e-08, 9.73444e-05, 0.00100041, 4.33939e-05,-0.000946434,-1.89478e-08,-2.8166e-09, 0.0000000E+000, 0.981367
 270, 290.004, 0.978465, 0.938674, 0.000693677, 0.0390957, 9.06785e-07, 1.45614e-07, 0.000133625, 0.00195274, 2.81707e-05,-0.00184716,-1.02418e-07,-1.80494e-08, 0.0000000E+000, 0.979675
 285, 305.004, 0.975936, 0.898068, 0.000361814, 0.0775008, 4.69728e-06, 8.88094e-07, 0.000211807, 0.00359868, 1.67379e-05,-0.003403,-4.99092e-07,-1.03921e-07, 0.0000000E+000, 0.977142
 300, 320.004, 0.971824, 0.826029, 0.000172817, 0.145596, 2.19907e-05, 4.88394e-06, 0.000346698, 0.00616795, 9.04736e-06,-0.00582758,-2.18615e-06,-5.37869e-07, 0.0000000E+000, 0.973025
 315, 335.004, 0.965228, 0.708719, 7.5091e-05, 0.256317, 9.25879e-05, 2.41863e-05, 0.000541623, 0.00956334, 4.42177e-06,-0.00901512,-8.52248e-06,-2.49128e-06, 0.0000000E+000, 0.96642
 330, 350.004, 0.955394, 0.539694, 2.9486e-05, 0.415217, 0.000346637, 0.000107192, 0.000771383, 0.0127914, 1.94196e-06,-0.0119828,-2.90108e-05,-1.02137e-05, 0.0000000E+000, 0.956572
 345, 365.005, 0.942147, 0.33677, 1.03944e-05, 0.603812, 0.00113329, 0.000420276, 0.000991045, 0.0136544, 7.61657e-07,-0.0125439,-8.38076e-05,-3.64112e-05, 0.0000000E+000, 0.943307
 360, 380.005, 0.925564, 0.15195, 3.26807e-06, 0.769007, 0.00316753, 0.00143593, 0.00123912, 0.0102836, 2.6513e-07,-0.00873502,-0.000199187,-0.000110529, 0.0000000E+000, 0.926703
 375, 395.005, 0.903463, 0.0409303, 9.10459e-07, 0.850841, 0.00746853, 0.00422239, 0.00179489, 0.00451937, 8.1406e-08,-0.00205744,-0.000385118,-0.000281995, 0.0000000E+000, 0.904572
 390, 410.005, 0.868024, 0.0049388, 2.23314e-07, 0.837398, 0.0150026, 0.0106851, 0.00307793, 0.000870993, 2.19123e-08, 0.00344477,-0.000627023,-0.000610833, 0.0000000E+000, 0.869084
 405, 425.005, 0.806464, 0.000174987, 4.79185e-08, 0.756223, 0.0264259, 0.02364, 0.00527543, 4.83259e-05, 5.13951e-09, 0.00727769,-0.000894139,-0.00115646, 0.0000000E+000, 0.807438
 420, 440.005, 0.706445, 9.89246e-07, 8.93964e-09, 0.618589, 0.0412714, 0.0465833, 0.00810104, 4.20043e-07, 1.04415e-09, 0.0110772,-0.00104115,-0.00193543, 0.0000000E+000, 0.707281
 435, 455.005, 0.566028, 3.75176e-10, 1.44116e-09, 0.428691, 0.0552819, 0.0820559, 0.0103592, 2.40805e-10, 1.82664e-10, 0.0138419,-0.000712601,-0.00277015, 0.0000000E+000, 0.56668
 450, 470.005, 0.409428, 2.83955e-15, 1.99564e-10, 0.223234, 0.0588018, 0.127393, 0.00990228, 2.71223e-15, 2.73587e-11, 0.0126921, 0.00035029,-0.00314008, 0.0000000E+000, 0.409887
 465, 485.005, 0.287071, 8.35893e-19, 2.35992e-11, 0.0717666, 0.0442205, 0.171084, 0.00600153, 0.0000000E+000, 3.48849e-12, 0.00702698, 0.00148478,-0.00251023, 0.0000000E+000, 0.287398
 480, 500.005, 0.230398, 8.35893e-19, 2.36967e-12, 0.0104008, 0.0206549, 0.199343, 0.00189071, 0.0000000E+000, 3.76607e-13, 0.0017177, 0.00141645,-0.00124344, 0.0000000E+000, 0.230674
 495, 515.005, 0.216735, 8.35893e-19, 2.00933e-13, 0.000414793, 0.00577748, 0.210543, 0.000317115, 0.0000000E+000, 3.42388e-14, 0.000113315, 0.000571827,-0.000368027, 0.0000000E+000, 0.217002
 510, 530.005, 0.214563, 8.35893e-19, 1.43106e-14, 2.12681e-06, 0.0011647, 0.213396, 5.32769e-05, 0.0000000E+000, 2.60774e-15, 9.43814e-07, 0.000130673,-7.83396e-05, 0.0000000E+000, 0.214828
 525, 545.005, 0.214175, 8.35893e-19, 8.51626e-16, 4.42193e-10, 0.000206277, 0.213969, 9.83549e-06, 0.0000000E+000, 1.6555e-16, 3.13457e-10, 2.44562e-05,-1.4621e-05, 0.0000000E+000, 0.21444
 540, 560.005, 0.214106, 8.35893e-19, 4.21343e-17, 6.65009e-16, 3.33119e-05, 0.214073, 1.67063e-06, 0.0000000E+000, 8.71731e-18, 7.41519e-16, 4.15416e-06,-2.48353e-06, 0.0000000E+000, 0.214371
 555, 575.005, 0.214094, 8.35893e-19, 1.72468e-18, 8.29743e-19, 4.90337e-06, 0.21409, 2.58191e-07, 0.0000000E+000, 3.78937e-19, 0.0000000E+000, 6.42015e-07,-3.83824e-07, 0.0000000E+000, 0.214359
 570, 590.005, 0.214093, 8.35893e-19, 8.35691e-19, 8.29743e-19, 6.57062e-07, 0.214092, 3.62649e-08, 0.0000000E+000, 0.0000000E+000, 0.0000000E+000, 9.01759e-08,-5.3911e-08, 0.0000000E+000, 0.214358
 585, 605.005, 0.214093, 8.35893e-19, 8.35691e-19, 8.29743e-19, 8.00651e-08, 0.214092, 4.62445e-09, 0.0000000E+000, 0.0000000E+000, 0.0000000E+000, 1.14991e-08,-6.87465e-09, 0.0000000E+000, 0.214357
 600, 620.005, 0.214093, 8.35893e-19, 8.35691e-19, 8.29743e-19, 8.86235e-09, 0.214093, 5.34861e-10, 0.0000000E+000, 0.0000000E+000, 0.0000000E+000, 1.32998e-09,-7.95117e-10, 0.0000000E+000, 0.214357
 615, 635.005, 0.214093, 8.35893e-19, 8.35691e-19, 8.29743e-19, 8.9023e-10, 0.214093, 5.60583e-11, 0.0000000E+000, 0.0000000E+000, 0.0000000E+000, 1.39394e-10,-8.33355e-11, 0.0000000E+000, 0.214357
 630, 650.005, 0.214093, 8.35893e-19, 8.35691e-19, 8.29743e-19, 8.10803e-11, 0.214093, 5.31986e-12, 0.0000000E+000, 0.0000000E+000, 0.0000000E+000, 1.32283e-11,-7.90843e-12, 0.0000000E+000, 0.214358
 645, 665.005, 0.214093, 8.35893e-19, 8.35691e-19, 8.29743e-19, 6.69008e-12, 0.214093, 4.56766e-13, 0.0000000E+000, 0.0000000E+000, 0.0000000E+000, 1.13579e-12,-6.79023e-13, 0.0000000E+000, 0.214357
 660, 680.005, 0.214093, 8.35893e-19, 8.35691e-19, 8.29743e-19, 4.99719e-13, 0.214093, 3.54588e-14, 0.0000000E+000, 0.0000000E+000, 0.0000000E+000, 8.81713e-14,-5.27125e-14, 0.0000000E+000, 0.214357
 675, 695.005, 0.214093, 8.35893e-19, 8.35691e-19, 8.29743e-19, 3.37678e-14, 0.214093, 2.48724e-15, 0.0000000E+000, 0.0000000E+000, 0.0000000E+000, 6.18475e-15,-3.6975e-15, 0.0000000E+000, 0.214357
 690, 710.005, 0.214093, 8.35893e-19, 8.35691e-19, 8.29743e-19, 2.06298e-15, 0.214093, 1.57556e-16, 0.0000000E+000, 0.0000000E+000, 0.0000000E+000, 3.91777e-16,-2.34221e-16, 0.0000000E+000, 0.214357
 705, 725.005, 0.214093, 8.35893e-19, 8.35691e-19, 8.29743e-19, 1.13885e-16, 0.214093, 9.0086e-18, 0.0000000E+000, 0.0000000E+000, 0.0000000E+000, 2.24007e-17,-1.33921e-17, 0.0000000E+000, 0.214357
 720, 740.005, 0.214093, 8.35893e-19, 8.35691e-19, 8.29743e-19, 5.67803e-18, 0.214093, 4.6472e-19, 0.0000000E+000, 0.0000000E+000, 0.0000000E+000, 1.15557e-18,-6.90846e-19, 0.0000000E+000, 0.214357
 735, 755.005, 0.214093, 8.35893e-19, 8.35691e-19, 8.29743e-19, 8.3693e-19, 0.214093, 0.0000000E+000, 0.0000000E+000, 0.0000000E+000, 0.0000000E+000, 0.0000000E+000, 0.0000000E+000, 0.0000000E+000, 0.214357
 750, 770.005, 0.214093, 8.35893e-19, 8.35691e-19, 8.29743e-19, 8.3693e-19, 0.214093, 0.0000000E+000, 0.0000000E+000, 0.0000000E+000, 0.0000000E+000, 0.0000000E+000, 0.0000000E+000, 0.0000000E+000, 0.214357
 765, 785.005, 0.214093, 8.35893e-19, 8.35691e-19, 8.29743e-19, 8.3693e-19, 0.214093, 0.0000000E+000, 0.0000000E+000, 0.0000000E+000, 0.0000000E+000, 0.0000000E+000, 0.0000000E+000, 0.0000000E+000, 0.214357
 780, 800.005, 0.214093, 8.35893e-19, 8.35691e-19, 8.29743e-19, 8.3693e-19, 0.214093, 0.0000000E+000, 0.0000000E+000, 0.0000000E+000, 0.0000000E+000, 0.0000000E+000, 0.0000000E+000, 0.0000000E+000, 0.214357